Folder: NATCATAL-22026850B

Note: README.md
# NATCATAL-22026850B
Source data for NATCATAL-22026850B

File: Cu2NCN-XRD.txt
5.000	13096
5.260	10869
5.520	10943
5.780	10999
6.040	11118
6.300	11088
6.560	11232
6.820	11494
7.080	11662
7.340	12299
7.600	13306
7.860	18779
8.120	48725
8.381	42647
8.641	16488
8.901	13628
9.161	12856
9.421	12494
9.681	12298
9.941	12177
10.201	11832
10.461	11849
10.721	11835
10.981	11902
11.241	12056
11.501	11876
11.761	11862
12.021	11721
12.281	11912
12.541	11869
12.801	11848
13.061	11736
13.321	11674
13.581	11837
13.841	11948
14.101	11849
14.361	11663
14.622	11672
14.882	11655
15.142	11791
15.402	12014
15.662	11846
15.922	12015
16.182	13149
16.442	17070
16.702	16881
16.962	12428
17.222	12096
17.482	11777
17.742	11439
18.002	11858
18.262	11612
18.522	11684
18.782	11856
19.042	11622
19.302	11659
19.562	11805
19.822	11808
20.082	11621
20.342	11602
20.602	11557
20.863	11544
21.123	11613
21.383	11586
21.643	11784
21.903	12316
22.163	12060
22.423	11772
22.683	11623
22.943	11775
23.203	11563
23.463	11975
23.723	11712
23.983	11773
24.243	12017
24.503	12413
24.763	14245
25.023	17735
25.283	12610
25.543	12275
25.803	12274
26.063	14574
26.323	14279
26.583	12114
26.843	11796
27.104	11842
27.364	11900
27.624	12071
27.884	12555
28.144	14312
28.404	16259
28.664	21722
28.924	20007
29.184	15031
29.444	16302
29.704	15122
29.964	17878
30.224	21652
30.484	13211
30.744	12376
31.004	12016
31.264	12053
31.524	12015
31.784	11848
32.044	11986
32.304	12080
32.564	12930
32.824	13711
33.084	14263
33.345	13985
33.605	13024
33.865	12213
34.125	11987
34.385	11883
34.645	12008
34.905	12146
35.165	12716
35.425	13188
35.685	16527
35.945	29741
36.205	37798
36.465	25891
36.725	25247
36.985	14682
37.245	13263
37.505	13363
37.765	14203
38.025	15477
38.285	14014
38.545	12754
38.805	12209
39.065	12616
39.325	12582
39.586	12581
39.846	11771
40.106	11821
40.366	11618
40.626	11770
40.886	11598
41.146	11575
41.406	11973
41.666	11750
41.926	11850
42.186	12257
42.446	11913
42.706	11854
42.966	12232
43.226	12361
43.486	13065
43.746	15559
44.006	19661
44.266	17285
44.526	16315
44.786	16727
45.046	15705
45.306	13015
45.566	12449
45.827	12383
46.087	12287
46.347	12539
46.607	12232
46.867	12108
47.127	11816
47.387	11641
47.647	11647
47.907	11656
48.167	11597
48.427	11732
48.687	11919
48.947	11811
49.207	11560
49.467	11604
49.727	11622
49.987	11936
50.247	12457
50.507	12204
50.767	12410
51.027	12718
51.287	13561
51.547	12194
51.807	12093
52.068	12397
52.328	11896
52.588	11680
52.848	11913
53.108	12583
53.368	12450
53.628	11739
53.888	11796
54.148	11741
54.408	11575
54.668	11530
54.928	11480
55.188	11451
55.448	11398
55.708	11488
55.968	11563
56.228	11697
56.488	12038
56.748	11599
57.008	11489
57.268	11821
57.528	11625
57.788	11748
58.048	12303
58.309	13334
58.569	13607
58.829	13050
59.089	13553
59.349	14853
59.609	15516
59.869	13970
60.129	12812
60.389	12600
60.649	12071
60.909	12012
61.169	11746
61.429	11528
61.689	11624
61.949	11582
62.209	11637
62.469	11900
62.729	11752
62.989	11732
63.249	11755
63.509	11874
63.769	11873
64.029	12037
64.289	12552
64.550	12323
64.810	11833
65.070	11508
65.330	11540
65.590	11357
65.850	11616
66.110	11328
66.370	11458
66.630	11774
66.890	11572
67.150	11695
67.410	11808
67.670	11915
67.930	12142
68.190	12034
68.450	11806
68.710	11677
68.970	11594
69.230	11588
69.490	11995
69.750	12436
70.010	12774
70.270	13018
70.530	12962
70.791	12417
71.051	12414
71.311	12106
71.571	12013
71.831	11802
72.091	11718
72.351	11839
72.611	11672
72.871	11534
73.131	11335
73.391	11424
73.651	11438
73.911	11410
74.171	11480
74.431	11498
74.691	11563
74.951	11543
75.211	11728
75.471	12388
75.731	12706
75.991	13159
76.251	13007
76.511	12645
76.771	12543
77.032	12439
77.292	12042
77.552	12047
77.812	12046
78.072	11887
78.332	11493
78.592	11296
78.852	11436
79.112	11475
79.372	11414
79.632	11196
79.892	11171
79.992	11348